<?xml version="1.0" encoding="UTF-8"?>

<Bundle xmlns="http://hl7.org/fhir">
  <id value="100A-multiitem-prescription-with-orchestration"/>
  <type value="collection"/>
  <entry>
    <fullUrl value="https://example.com/RequestGroup/100B-RequestOrchestration"/>
    <resource>
      <RequestGroup>
        <id value="100B-RequestOrchestration"/>
        <text>
          <status value="generated"/><div xmlns="http://www.w3.org/1999/xhtml"><a name="RequestGroup_100B-RequestOrchestration"> </a><p class="res-header-id"><b>Generated Narrative: RequestGroup 100B-RequestOrchestration</b></p><a name="100B-RequestOrchestration"> </a><a name="hc100B-RequestOrchestration"> </a><a name="100B-RequestOrchestration-en-US"> </a><p><b>groupIdentifier</b>: 100</p><p><b>status</b>: Active</p><p><b>intent</b>: Order</p><p><b>subject</b>: <a href="Patient-patient1.html">Thomas Engine  Male, DoB: 1950-09-15 ( 12345)</a></p><blockquote><p><b>action</b></p><p><b>resource</b>: <a href="MedicationRequest-100C-3-medication-prescription-request1.html">MedicationRequest: identifier = 100-1/3; status = active; intent = option; medication[x] = Thalidomide 50 mg oral capsule; authoredOn = 2024-10-03; reasonCode = Multiple myeloma; groupIdentifier = 100</a></p></blockquote><blockquote><p><b>action</b></p><p><b>resource</b>: <a href="MedicationRequest-100C-3-medication-prescription-request2.html">MedicationRequest: identifier = 100-2/3; status = active; intent = option; medication[x] = Melphalan 2 mg oral tablet; authoredOn = 2024-10-03; reasonCode = Multiple myeloma; groupIdentifier = 100</a></p></blockquote><blockquote><p><b>action</b></p><p><b>resource</b>: <a href="MedicationRequest-100C-3-medication-prescription-request3.html">MedicationRequest: identifier = 100-3/3; status = active; intent = option; medication[x] = Prednisone 50 mg oral tablet; authoredOn = 2024-10-03; reasonCode = Multiple myeloma; groupIdentifier = 100</a></p></blockquote></div>
        </text>
        <groupIdentifier>
          <value value="100"/>
        </groupIdentifier>
        <status value="active"/>
        <intent value="order"/>
        <subject>
          <reference value="Patient/patient1"/>
        </subject>
        <action>
          <resource>
            <reference value="MedicationRequest/100C-3-medication-prescription-request1"/>
          </resource>
        </action>
        <action>
          <resource>
            <reference value="MedicationRequest/100C-3-medication-prescription-request2"/>
          </resource>
        </action>
        <action>
          <resource>
            <reference value="MedicationRequest/100C-3-medication-prescription-request3"/>
          </resource>
        </action>
      </RequestGroup>
    </resource>
  </entry>
  <entry>
    <fullUrl value="https://example.com/MedicationRequest/100C-3-medication-prescription-request1"/>
    <resource>
      <MedicationRequest>
        <id value="100C-3-medication-prescription-request1"/>
        <meta>
          <profile value="http://hl7.eu/fhir/mpd/StructureDefinition/MedicationRequest-eu-mpd"/>
        </meta>
        <text>
          <status value="generated"/><div xmlns="http://www.w3.org/1999/xhtml"><a name="MedicationRequest_100C-3-medication-prescription-request1"> </a><p class="res-header-id"><b>Generated Narrative: MedicationRequest 100C-3-medication-prescription-request1</b></p><a name="100C-3-medication-prescription-request1"> </a><a name="hc100C-3-medication-prescription-request1"> </a><a name="100C-3-medication-prescription-request1-en-US"> </a><div style="display: inline-block; background-color: #d9e0e7; padding: 6px; margin: 4px; border: 1px solid #8da1b4; border-radius: 5px; line-height: 60%"><p style="margin-bottom: 0px"/><p style="margin-bottom: 0px">Profile: <a href="StructureDefinition-MedicationRequest-eu-mpd.html">MedicationRequest: MPD</a></p></div><p><b>identifier</b>: 100-1/3</p><p><b>status</b>: Active</p><p><b>intent</b>: Option</p><p><b>medication</b>: <span title="Codes:{http://snomed.info/sct 376255008}">Thalidomide 50 mg oral capsule</span></p><p><b>subject</b>: <a href="Patient-patient1.html">Thomas Engine  Male, DoB: 1950-09-15 ( 12345)</a></p><p><b>authoredOn</b>: 2024-10-03</p><p><b>requester</b>: <a href="PractitionerRole-doctor1.html">PractitionerRole Clinical oncologist</a></p><p><b>reasonCode</b>: <span title="Codes:{http://snomed.info/sct 109989006}">Multiple myeloma</span></p><p><b>groupIdentifier</b>: 100</p><blockquote><p><b>dosageInstruction</b></p><p><b>timing</b>: Late Evening, Once per 1 day</p><h3>DoseAndRates</h3><table class="grid"><tr><td style="display: none">-</td><td><b>Dose[x]</b></td></tr><tr><td style="display: none">*</td><td>4 Tablet<span style="background: LightGoldenRodYellow"> (Details: SNOMED CT  code732936001 = '732936001')</span></td></tr></table></blockquote><h3>DispenseRequests</h3><table class="grid"><tr><td style="display: none">-</td><td><b>ValidityPeriod</b></td><td><b>NumberOfRepeatsAllowed</b></td><td><b>Quantity</b></td></tr><tr><td style="display: none">*</td><td>2024-10-03 --&gt; 2024-12-03</td><td>1</td><td>168 Tablet<span style="background: LightGoldenRodYellow"> (Details: SNOMED CT  code732936001 = '732936001')</span></td></tr></table></div>
        </text>
        <identifier>
          <value value="100-1/3"/>
        </identifier>
        <status value="active"/>
        <intent value="option"/>
        <medicationCodeableConcept>
          <coding>
            <system value="http://snomed.info/sct"/>
            <code value="376255008"/>
            <display value="Thalidomide 50 mg oral capsule"/>
          </coding>
        </medicationCodeableConcept>
        <subject>
          <reference value="Patient/patient1"/>
        </subject>
        <authoredOn value="2024-10-03"/>
        <requester>
          <reference value="PractitionerRole/doctor1"/>
        </requester>
        <reasonCode>
          <coding>
            <system value="http://snomed.info/sct"/>
            <code value="109989006"/>
            <display value="Multiple myeloma"/>
          </coding>
        </reasonCode>
        <groupIdentifier>
          <value value="100"/>
        </groupIdentifier>
        <dosageInstruction>
          <timing>
            <repeat>
              <boundsDuration>
                <value value="42"/>
                <unit value="day"/>
                <system value="http://unitsofmeasure.org"/>
                <code value="d"/>
              </boundsDuration>
              <frequency value="1"/>
              <period value="1"/>
              <periodUnit value="d"/>
              <when value="EVE.late"/>
            </repeat>
          </timing>
          <doseAndRate>
            <doseQuantity>
              <value value="4"/>
              <unit value="Tablet"/>
              <system value="http://snomed.info/sct"/>
              <code value="732936001"/>
            </doseQuantity>
          </doseAndRate>
        </dosageInstruction>
        <dispenseRequest>
          <validityPeriod>
            <start value="2024-10-03"/>
            <end value="2024-12-03"/>
          </validityPeriod>
          <numberOfRepeatsAllowed value="1"/>
          <quantity>
            <value value="168"/>
            <unit value="Tablet"/>
            <system value="http://snomed.info/sct"/>
            <code value="732936001"/>
          </quantity>
        </dispenseRequest>
      </MedicationRequest>
    </resource>
  </entry>
  <entry>
    <fullUrl value="https://example.com/MedicationRequest/100C-3-medication-prescription-request2"/>
    <resource>
      <MedicationRequest>
        <id value="100C-3-medication-prescription-request2"/>
        <meta>
          <profile value="http://hl7.eu/fhir/mpd/StructureDefinition/MedicationRequest-eu-mpd"/>
        </meta>
        <text>
          <status value="generated"/><div xmlns="http://www.w3.org/1999/xhtml"><a name="MedicationRequest_100C-3-medication-prescription-request2"> </a><p class="res-header-id"><b>Generated Narrative: MedicationRequest 100C-3-medication-prescription-request2</b></p><a name="100C-3-medication-prescription-request2"> </a><a name="hc100C-3-medication-prescription-request2"> </a><a name="100C-3-medication-prescription-request2-en-US"> </a><div style="display: inline-block; background-color: #d9e0e7; padding: 6px; margin: 4px; border: 1px solid #8da1b4; border-radius: 5px; line-height: 60%"><p style="margin-bottom: 0px"/><p style="margin-bottom: 0px">Profile: <a href="StructureDefinition-MedicationRequest-eu-mpd.html">MedicationRequest: MPD</a></p></div><p><b>identifier</b>: 100-2/3</p><p><b>status</b>: Active</p><p><b>intent</b>: Option</p><p><b>medication</b>: <span title="Codes:{http://snomed.info/sct 326766003}">Melphalan 2 mg oral tablet</span></p><p><b>subject</b>: <a href="Patient-patient1.html">Thomas Engine  Male, DoB: 1950-09-15 ( 12345)</a></p><p><b>authoredOn</b>: 2024-10-03</p><p><b>requester</b>: <a href="PractitionerRole-doctor1.html">PractitionerRole Clinical oncologist</a></p><p><b>reasonCode</b>: <span title="Codes:{http://snomed.info/sct 109989006}">Multiple myeloma</span></p><p><b>groupIdentifier</b>: 100</p><blockquote><p><b>dosageInstruction</b></p><p><b>timing</b>: Once per 1 day</p><h3>DoseAndRates</h3><table class="grid"><tr><td style="display: none">-</td><td><b>Dose[x]</b></td></tr><tr><td style="display: none">*</td><td>4 Tablet<span style="background: LightGoldenRodYellow"> (Details: SNOMED CT  code732936001 = '732936001')</span></td></tr></table></blockquote><h3>DispenseRequests</h3><table class="grid"><tr><td style="display: none">-</td><td><b>ValidityPeriod</b></td><td><b>NumberOfRepeatsAllowed</b></td><td><b>Quantity</b></td></tr><tr><td style="display: none">*</td><td>2024-10-03 --&gt; 2024-12-03</td><td>1</td><td>16 Tablet<span style="background: LightGoldenRodYellow"> (Details: SNOMED CT  code732936001 = '732936001')</span></td></tr></table></div>
        </text>
        <identifier>
          <value value="100-2/3"/>
        </identifier>
        <status value="active"/>
        <intent value="option"/>
        <medicationCodeableConcept>
          <coding>
            <system value="http://snomed.info/sct"/>
            <code value="326766003"/>
            <display value="Melphalan 2 mg oral tablet"/>
          </coding>
        </medicationCodeableConcept>
        <subject>
          <reference value="Patient/patient1"/>
        </subject>
        <authoredOn value="2024-10-03"/>
        <requester>
          <reference value="PractitionerRole/doctor1"/>
        </requester>
        <reasonCode>
          <coding>
            <system value="http://snomed.info/sct"/>
            <code value="109989006"/>
            <display value="Multiple myeloma"/>
          </coding>
        </reasonCode>
        <groupIdentifier>
          <value value="100"/>
        </groupIdentifier>
        <dosageInstruction>
          <timing>
            <repeat>
              <boundsDuration>
                <value value="4"/>
                <unit value="day"/>
                <system value="http://unitsofmeasure.org"/>
                <code value="d"/>
              </boundsDuration>
              <frequency value="1"/>
              <period value="1"/>
              <periodUnit value="d"/>
            </repeat>
          </timing>
          <doseAndRate>
            <doseQuantity>
              <value value="4"/>
              <unit value="Tablet"/>
              <system value="http://snomed.info/sct"/>
              <code value="732936001"/>
            </doseQuantity>
          </doseAndRate>
        </dosageInstruction>
        <dispenseRequest>
          <validityPeriod>
            <start value="2024-10-03"/>
            <end value="2024-12-03"/>
          </validityPeriod>
          <numberOfRepeatsAllowed value="1"/>
          <quantity>
            <value value="16"/>
            <unit value="Tablet"/>
            <system value="http://snomed.info/sct"/>
            <code value="732936001"/>
          </quantity>
        </dispenseRequest>
      </MedicationRequest>
    </resource>
  </entry>
  <entry>
    <fullUrl value="https://example.com/MedicationRequest/100C-3-medication-prescription-request3"/>
    <resource>
      <MedicationRequest>
        <id value="100C-3-medication-prescription-request3"/>
        <meta>
          <profile value="http://hl7.eu/fhir/mpd/StructureDefinition/MedicationRequest-eu-mpd"/>
        </meta>
        <text>
          <status value="generated"/><div xmlns="http://www.w3.org/1999/xhtml"><a name="MedicationRequest_100C-3-medication-prescription-request3"> </a><p class="res-header-id"><b>Generated Narrative: MedicationRequest 100C-3-medication-prescription-request3</b></p><a name="100C-3-medication-prescription-request3"> </a><a name="hc100C-3-medication-prescription-request3"> </a><a name="100C-3-medication-prescription-request3-en-US"> </a><div style="display: inline-block; background-color: #d9e0e7; padding: 6px; margin: 4px; border: 1px solid #8da1b4; border-radius: 5px; line-height: 60%"><p style="margin-bottom: 0px"/><p style="margin-bottom: 0px">Profile: <a href="StructureDefinition-MedicationRequest-eu-mpd.html">MedicationRequest: MPD</a></p></div><p><b>identifier</b>: 100-3/3</p><p><b>status</b>: Active</p><p><b>intent</b>: Option</p><p><b>medication</b>: <span title="Codes:{http://snomed.info/sct 374072009}">Prednisone 50 mg oral tablet</span></p><p><b>subject</b>: <a href="Patient-patient1.html">Thomas Engine  Male, DoB: 1950-09-15 ( 12345)</a></p><p><b>authoredOn</b>: 2024-10-03</p><p><b>requester</b>: <a href="PractitionerRole-doctor1.html">PractitionerRole Clinical oncologist</a></p><p><b>reasonCode</b>: <span title="Codes:{http://snomed.info/sct 109989006}">Multiple myeloma</span></p><p><b>groupIdentifier</b>: 100</p><blockquote><p><b>dosageInstruction</b></p><p><b>timing</b>: Once per 1 day</p><h3>DoseAndRates</h3><table class="grid"><tr><td style="display: none">-</td><td><b>Dose[x]</b></td></tr><tr><td style="display: none">*</td><td>3 Tablet<span style="background: LightGoldenRodYellow"> (Details: SNOMED CT  code732936001 = '732936001')</span></td></tr></table></blockquote><h3>DispenseRequests</h3><table class="grid"><tr><td style="display: none">-</td><td><b>ValidityPeriod</b></td><td><b>NumberOfRepeatsAllowed</b></td><td><b>Quantity</b></td></tr><tr><td style="display: none">*</td><td>2024-10-03 --&gt; 2024-12-03</td><td>1</td><td>12 Tablet<span style="background: LightGoldenRodYellow"> (Details: SNOMED CT  code732936001 = '732936001')</span></td></tr></table></div>
        </text>
        <identifier>
          <value value="100-3/3"/>
        </identifier>
        <status value="active"/>
        <intent value="option"/>
        <medicationCodeableConcept>
          <coding>
            <system value="http://snomed.info/sct"/>
            <code value="374072009"/>
            <display value="Prednisone 50 mg oral tablet"/>
          </coding>
        </medicationCodeableConcept>
        <subject>
          <reference value="Patient/patient1"/>
        </subject>
        <authoredOn value="2024-10-03"/>
        <requester>
          <reference value="PractitionerRole/doctor1"/>
        </requester>
        <reasonCode>
          <coding>
            <system value="http://snomed.info/sct"/>
            <code value="109989006"/>
            <display value="Multiple myeloma"/>
          </coding>
        </reasonCode>
        <groupIdentifier>
          <value value="100"/>
        </groupIdentifier>
        <dosageInstruction>
          <timing>
            <repeat>
              <boundsDuration>
                <value value="4"/>
                <unit value="day"/>
                <system value="http://unitsofmeasure.org"/>
                <code value="d"/>
              </boundsDuration>
              <frequency value="1"/>
              <period value="1"/>
              <periodUnit value="d"/>
            </repeat>
          </timing>
          <doseAndRate>
            <doseQuantity>
              <value value="3"/>
              <unit value="Tablet"/>
              <system value="http://snomed.info/sct"/>
              <code value="732936001"/>
            </doseQuantity>
          </doseAndRate>
        </dosageInstruction>
        <dispenseRequest>
          <validityPeriod>
            <start value="2024-10-03"/>
            <end value="2024-12-03"/>
          </validityPeriod>
          <numberOfRepeatsAllowed value="1"/>
          <quantity>
            <value value="12"/>
            <unit value="Tablet"/>
            <system value="http://snomed.info/sct"/>
            <code value="732936001"/>
          </quantity>
        </dispenseRequest>
      </MedicationRequest>
    </resource>
  </entry>
  <entry>
    <fullUrl value="https://example.com/PractitionerRole/doctor1"/>
    <resource>
      <PractitionerRole>
        <id value="doctor1"/>
        <text>
          <status value="generated"/><div xmlns="http://www.w3.org/1999/xhtml"><a name="PractitionerRole_doctor1"> </a><p class="res-header-id"><b>Generated Narrative: PractitionerRole doctor1</b></p><a name="doctor1"> </a><a name="hcdoctor1"> </a><a name="doctor1-en-US"> </a><p><b>practitioner</b>: <a href="Practitioner-practitioner1.html">Dr Meryl Ärztin</a></p><p><b>organization</b>: <a href="Organization-organization1.html">Dr Ärztin Private Practice</a></p><p><b>code</b>: <span title="Codes:{http://snomed.info/sct 309295000}">Clinical oncologist</span></p></div>
        </text>
        <practitioner>
          <reference value="Practitioner/practitioner1"/>
          <display value="Dr Meryl Ärztin"/>
        </practitioner>
        <organization>
          <reference value="Organization/organization1"/>
          <display value="Dr Ärztin Private Practice"/>
        </organization>
        <code>
          <coding>
            <system value="http://snomed.info/sct"/>
            <code value="309295000"/>
            <display value="Clinical oncologist"/>
          </coding>
        </code>
      </PractitionerRole>
    </resource>
  </entry>
  <entry>
    <fullUrl value="https://example.com/Patient/patient1"/>
    <resource>
      <Patient>
        <id value="patient1"/>
        <meta>
          <profile value="http://hl7.eu/fhir/base/StructureDefinition/patient-eu-core"/>
        </meta>
        <text>
          <status value="generated"/><div xmlns="http://www.w3.org/1999/xhtml"><a name="Patient_patient1"> </a><p class="res-header-id"><b>Generated Narrative: Patient patient1</b></p><a name="patient1"> </a><a name="hcpatient1"> </a><a name="patient1-en-US"> </a><div style="display: inline-block; background-color: #d9e0e7; padding: 6px; margin: 4px; border: 1px solid #8da1b4; border-radius: 5px; line-height: 60%"><p style="margin-bottom: 0px"/><p style="margin-bottom: 0px">Profile: <a href="https://build.fhir.org/ig/hl7-eu/base/StructureDefinition-patient-eu-core.html">Patient (EU core)</a></p></div><p style="border: 1px #661aff solid; background-color: #e6e6ff; padding: 10px;">Thomas Engine  Male, DoB: 1950-09-15 ( 12345)</p><hr/></div>
        </text>
        <identifier>
          <value value="12345"/>
        </identifier>
        <name>
          <family value="Engine"/>
          <given value="Thomas"/>
        </name>
        <gender value="male"/>
        <birthDate value="1950-09-15"/>
      </Patient>
    </resource>
  </entry>
</Bundle>